STUDYID,USUBJID,SUBJID,SITEID,AGE,SEX,WEIGHT,HEIGHT,TRTP,AVISIT,AVISITN,NRRELTM,ARRELTM,MRRELTM,PARAM,PARAMCD,AVAL,PKERFL,REXRE,ANL01FL,ANL01FN,ANL02FL,ANL02FN
STUDY123,STUDY123-101-1,1,101,51,F,80,194,Treatment 1,VISIT 1,1,0,0,0,ANALYTE1,ANL1,0,,,Y,1,Y,1
STUDY123,STUDY123-101-1,1,101,51,F,80,194,Treatment 1,VISIT 1,1,0.5,0.5,0.5,ANALYTE1,ANL1,265.768,,,Y,1,Y,1
STUDY123,STUDY123-101-1,1,101,51,F,80,194,Treatment 1,VISIT 1,1,1,1,1,ANALYTE1,ANL1,545.831,,,Y,1,Y,1
STUDY123,STUDY123-101-1,1,101,51,F,80,194,Treatment 1,VISIT 1,1,1.5,1.5,1.5,ANALYTE1,ANL1,570.328,,,Y,1,Y,1
STUDY123,STUDY123-101-1,1,101,51,F,80,194,Treatment 1,VISIT 1,1,2,2,2,ANALYTE1,ANL1,527.114,,,Y,1,Y,1
STUDY123,STUDY123-101-1,1,101,51,F,80,194,Treatment 1,VISIT 1,1,3,2.79,2.79,ANALYTE1,ANL1,528.621,,,Y,1,Y,1
STUDY123,STUDY123-101-1,1,101,51,F,80,194,Treatment 1,VISIT 1,1,5,5,5,ANALYTE1,ANL1,400.988,,,Y,1,Y,1
STUDY123,STUDY123-101-1,1,101,51,F,80,194,Treatment 1,VISIT 1,1,8,8,8,ANALYTE1,ANL1,465.307,,,Y,1,Y,1
STUDY123,STUDY123-101-1,1,101,51,F,80,194,Treatment 1,VISIT 1,1,12,12,12,ANALYTE1,ANL1,331.393,,,Y,1,Y,1
STUDY123,STUDY123-101-1,1,101,51,F,80,194,Treatment 1,VISIT 2,2,0,0,0,ANALYTE1,ANL1,0,,,Y,1,Y,1
STUDY123,STUDY123-101-1,1,101,51,F,80,194,Treatment 1,VISIT 2,2,0.5,0.5,0.5,ANALYTE1,ANL1,191.644,,,Y,1,Y,1
STUDY123,STUDY123-101-1,1,101,51,F,80,194,Treatment 1,VISIT 2,2,1,1,1,ANALYTE1,ANL1,393.597,,,Y,1,Y,1
STUDY123,STUDY123-101-1,1,101,51,F,80,194,Treatment 1,VISIT 2,2,1.5,1.38,1.38,ANALYTE1,ANL1,411.261,,,Y,1,Y,1
STUDY123,STUDY123-101-1,1,101,51,F,80,194,Treatment 1,VISIT 2,2,2,1.84,1.84,ANALYTE1,ANL1,380.1,,,Y,1,Y,1
STUDY123,STUDY123-101-1,1,101,51,F,80,194,Treatment 1,VISIT 2,2,3,3,3,ANALYTE1,ANL1,381.187,,,Y,1,Y,1
STUDY123,STUDY123-101-1,1,101,51,F,80,194,Treatment 1,VISIT 2,2,5,5,5,ANALYTE1,ANL1,289.151,,,Y,1,Y,1
STUDY123,STUDY123-101-1,1,101,51,F,80,194,Treatment 1,VISIT 2,2,8,8,8,ANALYTE1,ANL1,335.531,,,Y,1,Y,1
STUDY123,STUDY123-101-1,1,101,51,F,80,194,Treatment 1,VISIT 2,2,12,11.01,11.01,ANALYTE1,ANL1,,Y,BAD LUCK,,,,
STUDY123,STUDY123-101-10,10,101,37,F,109,145,Treatment 2,VISIT 1,1,0,0,0,ANALYTE1,ANL1,0,,,Y,1,Y,1
STUDY123,STUDY123-101-10,10,101,37,F,109,145,Treatment 2,VISIT 1,1,0.5,0.5,0.5,ANALYTE1,ANL1,,Y,BAD LUCK,,,,
STUDY123,STUDY123-101-10,10,101,37,F,109,145,Treatment 2,VISIT 1,1,1,1,1,ANALYTE1,ANL1,174.455,,,Y,1,Y,1
STUDY123,STUDY123-101-10,10,101,37,F,109,145,Treatment 2,VISIT 1,1,1.5,1.5,1.5,ANALYTE1,ANL1,196.454,,,Y,1,Y,1
STUDY123,STUDY123-101-10,10,101,37,F,109,145,Treatment 2,VISIT 1,1,2,2,2,ANALYTE1,ANL1,179.965,,,Y,1,Y,1
STUDY123,STUDY123-101-10,10,101,37,F,109,145,Treatment 2,VISIT 1,1,3,2.76,2.76,ANALYTE1,ANL1,163.476,,,Y,1,Y,1
STUDY123,STUDY123-101-10,10,101,37,F,109,145,Treatment 2,VISIT 1,1,5,5,5,ANALYTE1,ANL1,163.161,,,Y,1,Y,1
STUDY123,STUDY123-101-10,10,101,37,F,109,145,Treatment 2,VISIT 1,1,8,8,8,ANALYTE1,ANL1,135.154,,,Y,1,Y,1
STUDY123,STUDY123-101-10,10,101,37,F,109,145,Treatment 2,VISIT 1,1,12,12,12,ANALYTE1,ANL1,93.353,,,Y,1,Y,1
STUDY123,STUDY123-101-10,10,101,37,F,109,145,Treatment 2,VISIT 2,2,0,0,0,ANALYTE1,ANL1,0,,,Y,1,Y,1
STUDY123,STUDY123-101-10,10,101,37,F,109,145,Treatment 2,VISIT 2,2,0.5,0.5,0.5,ANALYTE1,ANL1,55.384,,,Y,1,Y,1
STUDY123,STUDY123-101-10,10,101,37,F,109,145,Treatment 2,VISIT 2,2,1,1,1,ANALYTE1,ANL1,202.632,,,Y,1,Y,1
STUDY123,STUDY123-101-10,10,101,37,F,109,145,Treatment 2,VISIT 2,2,1.5,1.5,1.5,ANALYTE1,ANL1,228.184,,,Y,1,Y,1
STUDY123,STUDY123-101-10,10,101,37,F,109,145,Treatment 2,VISIT 2,2,2,1.81,1.81,ANALYTE1,ANL1,209.032,,,Y,1,Y,1
STUDY123,STUDY123-101-10,10,101,37,F,109,145,Treatment 2,VISIT 2,2,3,3,3,ANALYTE1,ANL1,189.88,,,Y,1,Y,1
STUDY123,STUDY123-101-10,10,101,37,F,109,145,Treatment 2,VISIT 2,2,5,5,5,ANALYTE1,ANL1,189.513,,,Y,1,Y,1
STUDY123,STUDY123-101-10,10,101,37,F,109,145,Treatment 2,VISIT 2,2,8,8,8,ANALYTE1,ANL1,156.983,,,Y,1,Y,1
STUDY123,STUDY123-101-10,10,101,37,F,109,145,Treatment 2,VISIT 2,2,12,12,12,ANALYTE1,ANL1,108.43,,,Y,1,Y,1
STUDY123,STUDY123-101-11,11,101,25,M,79,170,Treatment 1,VISIT 1,1,0,0,0,ANALYTE1,ANL1,0,,,Y,1,Y,1
STUDY123,STUDY123-101-11,11,101,25,M,79,170,Treatment 1,VISIT 1,1,0.5,0.46,0.46,ANALYTE1,ANL1,142.045,,,Y,1,Y,1
STUDY123,STUDY123-101-11,11,101,25,M,79,170,Treatment 1,VISIT 1,1,1,1,1,ANALYTE1,ANL1,291.731,,,Y,1,Y,1
STUDY123,STUDY123-101-11,11,101,25,M,79,170,Treatment 1,VISIT 1,1,1.5,1.38,1.38,ANALYTE1,ANL1,304.824,,,Y,1,Y,1
STUDY123,STUDY123-101-11,11,101,25,M,79,170,Treatment 1,VISIT 1,1,2,2,2,ANALYTE1,ANL1,281.727,,,Y,1,Y,1
STUDY123,STUDY123-101-11,11,101,25,M,79,170,Treatment 1,VISIT 1,1,3,3,3,ANALYTE1,ANL1,282.533,,,Y,1,Y,1
STUDY123,STUDY123-101-11,11,101,25,M,79,170,Treatment 1,VISIT 1,1,5,5,5,ANALYTE1,ANL1,214.317,,,Y,1,Y,1
STUDY123,STUDY123-101-11,11,101,25,M,79,170,Treatment 1,VISIT 1,1,8,8,8,ANALYTE1,ANL1,248.693,,,Y,1,Y,1
STUDY123,STUDY123-101-11,11,101,25,M,79,170,Treatment 1,VISIT 1,1,12,12,12,ANALYTE1,ANL1,177.12,,,Y,1,Y,1
STUDY123,STUDY123-101-11,11,101,25,M,79,170,Treatment 1,VISIT 2,2,0,0,0,ANALYTE1,ANL1,,Y,BAD LUCK,,,,
STUDY123,STUDY123-101-11,11,101,25,M,79,170,Treatment 1,VISIT 2,2,0.5,0.5,0.5,ANALYTE1,ANL1,113.541,,,Y,1,Y,1
STUDY123,STUDY123-101-11,11,101,25,M,79,170,Treatment 1,VISIT 2,2,1,1,1,ANALYTE1,ANL1,233.19,,,Y,1,Y,1
STUDY123,STUDY123-101-11,11,101,25,M,79,170,Treatment 1,VISIT 2,2,1.5,1.5,1.5,ANALYTE1,ANL1,243.656,,,Y,1,Y,1
STUDY123,STUDY123-101-11,11,101,25,M,79,170,Treatment 1,VISIT 2,2,2,2,2,ANALYTE1,ANL1,225.194,,,Y,1,Y,1
STUDY123,STUDY123-101-11,11,101,25,M,79,170,Treatment 1,VISIT 2,2,3,3,3,ANALYTE1,ANL1,,Y,BAD LUCK,,,,
STUDY123,STUDY123-101-11,11,101,25,M,79,170,Treatment 1,VISIT 2,2,5,5,5,ANALYTE1,ANL1,171.31,,,Y,1,Y,1
STUDY123,STUDY123-101-11,11,101,25,M,79,170,Treatment 1,VISIT 2,2,8,7.57,7.57,ANALYTE1,ANL1,198.789,,,Y,1,Y,1
STUDY123,STUDY123-101-11,11,101,25,M,79,170,Treatment 1,VISIT 2,2,12,12,12,ANALYTE1,ANL1,141.578,,,Y,1,Y,1
STUDY123,STUDY123-101-12,12,101,58,M,84,164,Treatment 2,VISIT 1,1,0,0,0,ANALYTE1,ANL1,0,,,Y,1,Y,1
STUDY123,STUDY123-101-12,12,101,58,M,84,164,Treatment 2,VISIT 1,1,0.5,0.5,0.5,ANALYTE1,ANL1,,Y,BAD LUCK,,,,
STUDY123,STUDY123-101-12,12,101,58,M,84,164,Treatment 2,VISIT 1,1,1,1,1,ANALYTE1,ANL1,115.222,,,Y,1,Y,1
STUDY123,STUDY123-101-12,12,101,58,M,84,164,Treatment 2,VISIT 1,1,1.5,1.5,1.5,ANALYTE1,ANL1,129.752,,,Y,1,Y,1
STUDY123,STUDY123-101-12,12,101,58,M,84,164,Treatment 2,VISIT 1,1,2,2,2,ANALYTE1,ANL1,118.861,,,Y,1,Y,1
STUDY123,STUDY123-101-12,12,101,58,M,84,164,Treatment 2,VISIT 1,1,3,3,3,ANALYTE1,ANL1,107.971,,,Y,1,Y,1
STUDY123,STUDY123-101-12,12,101,58,M,84,164,Treatment 2,VISIT 1,1,5,5,5,ANALYTE1,ANL1,107.763,,,Y,1,Y,1
STUDY123,STUDY123-101-12,12,101,58,M,84,164,Treatment 2,VISIT 1,1,8,8,8,ANALYTE1,ANL1,89.265,,,Y,1,Y,1
STUDY123,STUDY123-101-12,12,101,58,M,84,164,Treatment 2,VISIT 1,1,12,12,12,ANALYTE1,ANL1,,Y,BAD LUCK,,,,
STUDY123,STUDY123-101-12,12,101,58,M,84,164,Treatment 2,VISIT 2,2,0,0,0,ANALYTE1,ANL1,0,,,Y,1,Y,1
STUDY123,STUDY123-101-12,12,101,58,M,84,164,Treatment 2,VISIT 2,2,0.5,0.5,0.5,ANALYTE1,ANL1,,Y,BAD LUCK,,,,
STUDY123,STUDY123-101-12,12,101,58,M,84,164,Treatment 2,VISIT 2,2,1,1,1,ANALYTE1,ANL1,92.101,,,Y,1,Y,1
STUDY123,STUDY123-101-12,12,101,58,M,84,164,Treatment 2,VISIT 2,2,1.5,1.5,1.5,ANALYTE1,ANL1,103.715,,,Y,1,Y,1
STUDY123,STUDY123-101-12,12,101,58,M,84,164,Treatment 2,VISIT 2,2,2,2,2,ANALYTE1,ANL1,95.01,,,Y,1,Y,1
STUDY123,STUDY123-101-12,12,101,58,M,84,164,Treatment 2,VISIT 2,2,3,3,3,ANALYTE1,ANL1,86.305,,,Y,1,Y,1
STUDY123,STUDY123-101-12,12,101,58,M,84,164,Treatment 2,VISIT 2,2,5,5,5,ANALYTE1,ANL1,86.138,,,Y,1,Y,1
STUDY123,STUDY123-101-12,12,101,58,M,84,164,Treatment 2,VISIT 2,2,8,8,8,ANALYTE1,ANL1,71.353,,,Y,1,Y,1
STUDY123,STUDY123-101-12,12,101,58,M,84,164,Treatment 2,VISIT 2,2,12,12,12,ANALYTE1,ANL1,49.284,,,Y,1,Y,1
STUDY123,STUDY123-101-13,13,101,42,M,116,200,Treatment 1,VISIT 1,1,0,0,0,ANALYTE1,ANL1,,Y,BAD LUCK,,,,
STUDY123,STUDY123-101-13,13,101,42,M,116,200,Treatment 1,VISIT 1,1,0.5,0.5,0.5,ANALYTE1,ANL1,144.87,,,Y,1,Y,1
STUDY123,STUDY123-101-13,13,101,42,M,116,200,Treatment 1,VISIT 1,1,1,1,1,ANALYTE1,ANL1,297.532,,,Y,1,Y,1
STUDY123,STUDY123-101-13,13,101,42,M,116,200,Treatment 1,VISIT 1,1,1.5,1.4,1.4,ANALYTE1,ANL1,310.885,,,Y,1,Y,1
STUDY123,STUDY123-101-13,13,101,42,M,116,200,Treatment 1,VISIT 1,1,2,2,2,ANALYTE1,ANL1,287.329,,,Y,1,Y,1
STUDY123,STUDY123-101-13,13,101,42,M,116,200,Treatment 1,VISIT 1,1,3,3,3,ANALYTE1,ANL1,288.151,,,Y,1,Y,1
STUDY123,STUDY123-101-13,13,101,42,M,116,200,Treatment 1,VISIT 1,1,5,5,5,ANALYTE1,ANL1,218.578,,,Y,1,Y,1
STUDY123,STUDY123-101-13,13,101,42,M,116,200,Treatment 1,VISIT 1,1,8,7.46,7.46,ANALYTE1,ANL1,253.638,,,Y,1,Y,1
STUDY123,STUDY123-101-13,13,101,42,M,116,200,Treatment 1,VISIT 1,1,12,12,12,ANALYTE1,ANL1,180.642,,,Y,1,Y,1
STUDY123,STUDY123-101-13,13,101,42,M,116,200,Treatment 1,VISIT 2,2,0,0,0,ANALYTE1,ANL1,0,,,Y,1,Y,1
STUDY123,STUDY123-101-13,13,101,42,M,116,200,Treatment 1,VISIT 2,2,0.5,0.5,0.5,ANALYTE1,ANL1,,Y,BAD LUCK,,,,
STUDY123,STUDY123-101-13,13,101,42,M,116,200,Treatment 1,VISIT 2,2,1,1,1,ANALYTE1,ANL1,271.428,,,Y,1,Y,1
STUDY123,STUDY123-101-13,13,101,42,M,116,200,Treatment 1,VISIT 2,2,1.5,1.5,1.5,ANALYTE1,ANL1,283.61,,,Y,1,Y,1
STUDY123,STUDY123-101-13,13,101,42,M,116,200,Treatment 1,VISIT 2,2,2,2,2,ANALYTE1,ANL1,262.12,,,Y,1,Y,1
STUDY123,STUDY123-101-13,13,101,42,M,116,200,Treatment 1,VISIT 2,2,3,3,3,ANALYTE1,ANL1,262.87,,,Y,1,Y,1
STUDY123,STUDY123-101-13,13,101,42,M,116,200,Treatment 1,VISIT 2,2,5,5,5,ANALYTE1,ANL1,199.401,,,Y,1,Y,1
STUDY123,STUDY123-101-13,13,101,42,M,116,200,Treatment 1,VISIT 2,2,8,8,8,ANALYTE1,ANL1,231.386,,,Y,1,Y,1
STUDY123,STUDY123-101-13,13,101,42,M,116,200,Treatment 1,VISIT 2,2,12,12,12,ANALYTE1,ANL1,164.794,,,Y,1,Y,1
STUDY123,STUDY123-101-14,14,101,26,M,89,162,Treatment 2,VISIT 1,1,0,0,0,ANALYTE1,ANL1,0,,,Y,1,Y,1
STUDY123,STUDY123-101-14,14,101,26,M,89,162,Treatment 2,VISIT 1,1,0.5,0.5,0.5,ANALYTE1,ANL1,32.119,,,Y,1,Y,1
STUDY123,STUDY123-101-14,14,101,26,M,89,162,Treatment 2,VISIT 1,1,1,1,1,ANALYTE1,ANL1,117.513,,,Y,1,Y,1
STUDY123,STUDY123-101-14,14,101,26,M,89,162,Treatment 2,VISIT 1,1,1.5,1.5,1.5,ANALYTE1,ANL1,132.332,,,Y,1,Y,1
STUDY123,STUDY123-101-14,14,101,26,M,89,162,Treatment 2,VISIT 1,1,2,1.87,1.87,ANALYTE1,ANL1,121.225,,,Y,1,Y,1
STUDY123,STUDY123-101-14,14,101,26,M,89,162,Treatment 2,VISIT 1,1,3,3,3,ANALYTE1,ANL1,110.118,,,Y,1,Y,1
STUDY123,STUDY123-101-14,14,101,26,M,89,162,Treatment 2,VISIT 1,1,5,5,5,ANALYTE1,ANL1,109.905,,,Y,1,Y,1
STUDY123,STUDY123-101-14,14,101,26,M,89,162,Treatment 2,VISIT 1,1,8,8,8,ANALYTE1,ANL1,91.04,,,Y,1,Y,1
STUDY123,STUDY123-101-14,14,101,26,M,89,162,Treatment 2,VISIT 1,1,12,11.19,11.19,ANALYTE1,ANL1,62.882,,,Y,1,Y,1
STUDY123,STUDY123-101-14,14,101,26,M,89,162,Treatment 2,VISIT 2,2,0,0,0,ANALYTE1,ANL1,0,,,Y,1,Y,1
STUDY123,STUDY123-101-14,14,101,26,M,89,162,Treatment 2,VISIT 2,2,0.5,0.5,0.5,ANALYTE1,ANL1,29.301,,,Y,1,Y,1
STUDY123,STUDY123-101-14,14,101,26,M,89,162,Treatment 2,VISIT 2,2,1,1,1,ANALYTE1,ANL1,,Y,BAD LUCK,,,,
STUDY123,STUDY123-101-14,14,101,26,M,89,162,Treatment 2,VISIT 2,2,1.5,1.5,1.5,ANALYTE1,ANL1,120.722,,,Y,1,Y,1
STUDY123,STUDY123-101-14,14,101,26,M,89,162,Treatment 2,VISIT 2,2,2,2,2,ANALYTE1,ANL1,110.589,,,Y,1,Y,1
STUDY123,STUDY123-101-14,14,101,26,M,89,162,Treatment 2,VISIT 2,2,3,3,3,ANALYTE1,ANL1,100.457,,,Y,1,Y,1
STUDY123,STUDY123-101-14,14,101,26,M,89,162,Treatment 2,VISIT 2,2,5,4.57,4.57,ANALYTE1,ANL1,100.263,,,Y,1,Y,1
STUDY123,STUDY123-101-14,14,101,26,M,89,162,Treatment 2,VISIT 2,2,8,8,8,ANALYTE1,ANL1,83.053,,,Y,1,Y,1
STUDY123,STUDY123-101-14,14,101,26,M,89,162,Treatment 2,VISIT 2,2,12,12,12,ANALYTE1,ANL1,57.365,,,Y,1,Y,1
STUDY123,STUDY123-101-15,15,101,52,F,97,168,Treatment 1,VISIT 1,1,0,0,0,ANALYTE1,ANL1,0,,,Y,1,Y,1
STUDY123,STUDY123-101-15,15,101,52,F,97,168,Treatment 1,VISIT 1,1,0.5,0.45,0.45,ANALYTE1,ANL1,177.208,,,Y,1,Y,1
STUDY123,STUDY123-101-15,15,101,52,F,97,168,Treatment 1,VISIT 1,1,1,1,1,ANALYTE1,ANL1,363.948,,,Y,1,Y,1
STUDY123,STUDY123-101-15,15,101,52,F,97,168,Treatment 1,VISIT 1,1,1.5,1.5,1.5,ANALYTE1,ANL1,380.282,,,Y,1,Y,1
STUDY123,STUDY123-101-15,15,101,52,F,97,168,Treatment 1,VISIT 1,1,2,2,2,ANALYTE1,ANL1,351.467,,,Y,1,Y,1
STUDY123,STUDY123-101-15,15,101,52,F,97,168,Treatment 1,VISIT 1,1,3,3,3,ANALYTE1,ANL1,352.473,,,Y,1,Y,1
STUDY123,STUDY123-101-15,15,101,52,F,97,168,Treatment 1,VISIT 1,1,5,5,5,ANALYTE1,ANL1,267.37,,,Y,1,Y,1
STUDY123,STUDY123-101-15,15,101,52,F,97,168,Treatment 1,VISIT 1,1,8,8,8,ANALYTE1,ANL1,310.256,,,Y,1,Y,1
STUDY123,STUDY123-101-15,15,101,52,F,97,168,Treatment 1,VISIT 1,1,12,12,12,ANALYTE1,ANL1,220.965,,,Y,1,Y,1
STUDY123,STUDY123-101-15,15,101,52,F,97,168,Treatment 1,VISIT 2,2,0,0,0,ANALYTE1,ANL1,0,,,Y,1,Y,1
STUDY123,STUDY123-101-15,15,101,52,F,97,168,Treatment 1,VISIT 2,2,0.5,0.5,0.5,ANALYTE1,ANL1,234.223,,,Y,1,Y,1
STUDY123,STUDY123-101-15,15,101,52,F,97,168,Treatment 1,VISIT 2,2,1,1,1,ANALYTE1,ANL1,481.046,,,Y,1,Y,1
STUDY123,STUDY123-101-15,15,101,52,F,97,168,Treatment 1,VISIT 2,2,1.5,1.5,1.5,ANALYTE1,ANL1,502.635,,,Y,1,Y,1
STUDY123,STUDY123-101-15,15,101,52,F,97,168,Treatment 1,VISIT 2,2,2,1.9,1.9,ANALYTE1,ANL1,464.55,,,Y,1,Y,1
STUDY123,STUDY123-101-15,15,101,52,F,97,168,Treatment 1,VISIT 2,2,3,3,3,ANALYTE1,ANL1,465.878,,,Y,1,Y,1
STUDY123,STUDY123-101-15,15,101,52,F,97,168,Treatment 1,VISIT 2,2,5,5,5,ANALYTE1,ANL1,,Y,BAD LUCK,,,,
STUDY123,STUDY123-101-15,15,101,52,F,97,168,Treatment 1,VISIT 2,2,8,8,8,ANALYTE1,ANL1,410.079,,,Y,1,Y,1
STUDY123,STUDY123-101-15,15,101,52,F,97,168,Treatment 1,VISIT 2,2,12,12,12,ANALYTE1,ANL1,292.06,,,Y,1,Y,1
STUDY123,STUDY123-101-16,16,101,64,M,98,153,Treatment 2,VISIT 1,1,0,0,0,ANALYTE1,ANL1,0,,,Y,1,Y,1
STUDY123,STUDY123-101-16,16,101,64,M,98,153,Treatment 2,VISIT 1,1,0.5,0.5,0.5,ANALYTE1,ANL1,39.289,,,Y,1,Y,1
STUDY123,STUDY123-101-16,16,101,64,M,98,153,Treatment 2,VISIT 1,1,1,1,1,ANALYTE1,ANL1,143.745,,,Y,1,Y,1
STUDY123,STUDY123-101-16,16,101,64,M,98,153,Treatment 2,VISIT 1,1,1.5,1.5,1.5,ANALYTE1,ANL1,161.871,,,Y,1,Y,1
STUDY123,STUDY123-101-16,16,101,64,M,98,153,Treatment 2,VISIT 1,1,2,1.82,1.82,ANALYTE1,ANL1,148.285,,,Y,1,Y,1
STUDY123,STUDY123-101-16,16,101,64,M,98,153,Treatment 2,VISIT 1,1,3,3,3,ANALYTE1,ANL1,134.698,,,Y,1,Y,1
STUDY123,STUDY123-101-16,16,101,64,M,98,153,Treatment 2,VISIT 1,1,5,5,5,ANALYTE1,ANL1,134.439,,,Y,1,Y,1
STUDY123,STUDY123-101-16,16,101,64,M,98,153,Treatment 2,VISIT 1,1,8,8,8,ANALYTE1,ANL1,111.362,,,Y,1,Y,1
STUDY123,STUDY123-101-16,16,101,64,M,98,153,Treatment 2,VISIT 1,1,12,12,12,ANALYTE1,ANL1,76.919,,,Y,1,Y,1
STUDY123,STUDY123-101-16,16,101,64,M,98,153,Treatment 2,VISIT 2,2,0,0,0,ANALYTE1,ANL1,0,,,Y,1,Y,1
STUDY123,STUDY123-101-16,16,101,64,M,98,153,Treatment 2,VISIT 2,2,0.5,0.5,0.5,ANALYTE1,ANL1,51.93,,,Y,1,Y,1
STUDY123,STUDY123-101-16,16,101,64,M,98,153,Treatment 2,VISIT 2,2,1,1,1,ANALYTE1,ANL1,189.994,,,Y,1,Y,1
STUDY123,STUDY123-101-16,16,101,64,M,98,153,Treatment 2,VISIT 2,2,1.5,1.5,1.5,ANALYTE1,ANL1,213.952,,,Y,1,Y,1
STUDY123,STUDY123-101-16,16,101,64,M,98,153,Treatment 2,VISIT 2,2,2,2,2,ANALYTE1,ANL1,195.994,,,Y,1,Y,1
STUDY123,STUDY123-101-16,16,101,64,M,98,153,Treatment 2,VISIT 2,2,3,3,3,ANALYTE1,ANL1,178.037,,,Y,1,Y,1
STUDY123,STUDY123-101-16,16,101,64,M,98,153,Treatment 2,VISIT 2,2,5,5,5,ANALYTE1,ANL1,177.694,,,Y,1,Y,1
STUDY123,STUDY123-101-16,16,101,64,M,98,153,Treatment 2,VISIT 2,2,8,8,8,ANALYTE1,ANL1,147.192,,,Y,1,Y,1
STUDY123,STUDY123-101-16,16,101,64,M,98,153,Treatment 2,VISIT 2,2,12,12,12,ANALYTE1,ANL1,101.667,,,Y,1,Y,1
STUDY123,STUDY123-101-17,17,101,74,F,92,184,Treatment 1,VISIT 1,1,0,0,0,ANALYTE1,ANL1,0,,,Y,1,Y,1
STUDY123,STUDY123-101-17,17,101,74,F,92,184,Treatment 1,VISIT 1,1,0.5,0.5,0.5,ANALYTE1,ANL1,302.326,,,Y,1,Y,1
STUDY123,STUDY123-101-17,17,101,74,F,92,184,Treatment 1,VISIT 1,1,1,0.91,0.91,ANALYTE1,ANL1,620.914,,,Y,1,Y,1
STUDY123,STUDY123-101-17,17,101,74,F,92,184,Treatment 1,VISIT 1,1,1.5,1.5,1.5,ANALYTE1,ANL1,648.78,,,Y,1,Y,1
STUDY123,STUDY123-101-17,17,101,74,F,92,184,Treatment 1,VISIT 1,1,2,2,2,ANALYTE1,ANL1,599.622,,,Y,1,Y,1
STUDY123,STUDY123-101-17,17,101,74,F,92,184,Treatment 1,VISIT 1,1,3,3,3,ANALYTE1,ANL1,601.336,,,Y,1,Y,1
STUDY123,STUDY123-101-17,17,101,74,F,92,184,Treatment 1,VISIT 1,1,5,5,5,ANALYTE1,ANL1,456.147,,,Y,1,Y,1
STUDY123,STUDY123-101-17,17,101,74,F,92,184,Treatment 1,VISIT 1,1,8,8,8,ANALYTE1,ANL1,529.313,,,Y,1,Y,1
STUDY123,STUDY123-101-17,17,101,74,F,92,184,Treatment 1,VISIT 1,1,12,12,12,ANALYTE1,ANL1,376.978,,,Y,1,Y,1
STUDY123,STUDY123-101-17,17,101,74,F,92,184,Treatment 1,VISIT 2,2,0,0,0,ANALYTE1,ANL1,0,,,Y,1,Y,1
STUDY123,STUDY123-101-17,17,101,74,F,92,184,Treatment 1,VISIT 2,2,0.5,0.5,0.5,ANALYTE1,ANL1,245.653,,,Y,1,Y,1
STUDY123,STUDY123-101-17,17,101,74,F,92,184,Treatment 1,VISIT 2,2,1,1,1,ANALYTE1,ANL1,504.52,,,Y,1,Y,1
STUDY123,STUDY123-101-17,17,101,74,F,92,184,Treatment 1,VISIT 2,2,1.5,1.5,1.5,ANALYTE1,ANL1,527.163,,,Y,1,Y,1
STUDY123,STUDY123-101-17,17,101,74,F,92,184,Treatment 1,VISIT 2,2,2,2,2,ANALYTE1,ANL1,487.219,,,Y,1,Y,1
STUDY123,STUDY123-101-17,17,101,74,F,92,184,Treatment 1,VISIT 2,2,3,3,3,ANALYTE1,ANL1,488.613,,,Y,1,Y,1
STUDY123,STUDY123-101-17,17,101,74,F,92,184,Treatment 1,VISIT 2,2,5,5,5,ANALYTE1,ANL1,370.64,,,Y,1,Y,1
STUDY123,STUDY123-101-17,17,101,74,F,92,184,Treatment 1,VISIT 2,2,8,8,8,ANALYTE1,ANL1,430.09,,,Y,1,Y,1
STUDY123,STUDY123-101-17,17,101,74,F,92,184,Treatment 1,VISIT 2,2,12,12,12,ANALYTE1,ANL1,306.312,,,Y,1,Y,1
STUDY123,STUDY123-101-18,18,101,59,M,86,183,Treatment 2,VISIT 1,1,0,0,0,ANALYTE1,ANL1,0,,,Y,1,Y,1
STUDY123,STUDY123-101-18,18,101,59,M,86,183,Treatment 2,VISIT 1,1,0.5,0.5,0.5,ANALYTE1,ANL1,67.029,,,Y,1,Y,1
STUDY123,STUDY123-101-18,18,101,59,M,86,183,Treatment 2,VISIT 1,1,1,1,1,ANALYTE1,ANL1,245.236,,,Y,1,Y,1
STUDY123,STUDY123-101-18,18,101,59,M,86,183,Treatment 2,VISIT 1,1,1.5,1.5,1.5,ANALYTE1,ANL1,276.16,,,Y,1,Y,1
STUDY123,STUDY123-101-18,18,101,59,M,86,183,Treatment 2,VISIT 1,1,2,1.82,1.82,ANALYTE1,ANL1,252.981,,,Y,1,Y,1
STUDY123,STUDY123-101-18,18,101,59,M,86,183,Treatment 2,VISIT 1,1,3,3,3,ANALYTE1,ANL1,229.803,,,Y,1,Y,1
STUDY123,STUDY123-101-18,18,101,59,M,86,183,Treatment 2,VISIT 1,1,5,5,5,ANALYTE1,ANL1,229.36,,,Y,1,Y,1
STUDY123,STUDY123-101-18,18,101,59,M,86,183,Treatment 2,VISIT 1,1,8,8,8,ANALYTE1,ANL1,189.99,,,Y,1,Y,1
STUDY123,STUDY123-101-18,18,101,59,M,86,183,Treatment 2,VISIT 1,1,12,12,12,ANALYTE1,ANL1,131.228,,,Y,1,Y,1
STUDY123,STUDY123-101-18,18,101,59,M,86,183,Treatment 2,VISIT 2,2,0,0,0,ANALYTE1,ANL1,0,,,Y,1,Y,1
STUDY123,STUDY123-101-18,18,101,59,M,86,183,Treatment 2,VISIT 2,2,0.5,0.5,0.5,ANALYTE1,ANL1,54.464,,,Y,1,Y,1
STUDY123,STUDY123-101-18,18,101,59,M,86,183,Treatment 2,VISIT 2,2,1,1,1,ANALYTE1,ANL1,199.265,,,Y,1,Y,1
STUDY123,STUDY123-101-18,18,101,59,M,86,183,Treatment 2,VISIT 2,2,1.5,1.5,1.5,ANALYTE1,ANL1,224.393,,,Y,1,Y,1
STUDY123,STUDY123-101-18,18,101,59,M,86,183,Treatment 2,VISIT 2,2,2,2,2,ANALYTE1,ANL1,205.559,,,Y,1,Y,1
STUDY123,STUDY123-101-18,18,101,59,M,86,183,Treatment 2,VISIT 2,2,3,3,3,ANALYTE1,ANL1,186.725,,,Y,1,Y,1
STUDY123,STUDY123-101-18,18,101,59,M,86,183,Treatment 2,VISIT 2,2,5,5,5,ANALYTE1,ANL1,186.365,,,Y,1,Y,1
STUDY123,STUDY123-101-18,18,101,59,M,86,183,Treatment 2,VISIT 2,2,8,8,8,ANALYTE1,ANL1,154.375,,,Y,1,Y,1
STUDY123,STUDY123-101-18,18,101,59,M,86,183,Treatment 2,VISIT 2,2,12,12,12,ANALYTE1,ANL1,106.629,,,Y,1,Y,1
STUDY123,STUDY123-101-19,19,101,39,M,99,161,Treatment 1,VISIT 1,1,0,0,0,ANALYTE1,ANL1,0,,,Y,1,Y,1
STUDY123,STUDY123-101-19,19,101,39,M,99,161,Treatment 1,VISIT 1,1,0.5,0.5,0.5,ANALYTE1,ANL1,247.919,,,Y,1,Y,1
STUDY123,STUDY123-101-19,19,101,39,M,99,161,Treatment 1,VISIT 1,1,1,1,1,ANALYTE1,ANL1,509.174,,,Y,1,Y,1
STUDY123,STUDY123-101-19,19,101,39,M,99,161,Treatment 1,VISIT 1,1,1.5,1.36,1.36,ANALYTE1,ANL1,532.025,,,Y,1,Y,1
STUDY123,STUDY123-101-19,19,101,39,M,99,161,Treatment 1,VISIT 1,1,2,2,2,ANALYTE1,ANL1,491.713,,,Y,1,Y,1
STUDY123,STUDY123-101-19,19,101,39,M,99,161,Treatment 1,VISIT 1,1,3,2.72,2.72,ANALYTE1,ANL1,493.119,,,Y,1,Y,1
STUDY123,STUDY123-101-19,19,101,39,M,99,161,Treatment 1,VISIT 1,1,5,4.54,4.54,ANALYTE1,ANL1,,Y,BAD LUCK,,,,
STUDY123,STUDY123-101-19,19,101,39,M,99,161,Treatment 1,VISIT 1,1,8,8,8,ANALYTE1,ANL1,,Y,BAD LUCK,,,,
STUDY123,STUDY123-101-19,19,101,39,M,99,161,Treatment 1,VISIT 1,1,12,12,12,ANALYTE1,ANL1,309.137,,,Y,1,Y,1
STUDY123,STUDY123-101-19,19,101,39,M,99,161,Treatment 1,VISIT 2,2,0,0,0,ANALYTE1,ANL1,0,,,Y,1,Y,1
STUDY123,STUDY123-101-19,19,101,39,M,99,161,Treatment 1,VISIT 2,2,0.5,0.5,0.5,ANALYTE1,ANL1,214.554,,,Y,1,Y,1
STUDY123,STUDY123-101-19,19,101,39,M,99,161,Treatment 1,VISIT 2,2,1,1,1,ANALYTE1,ANL1,440.649,,,Y,1,Y,1
STUDY123,STUDY123-101-19,19,101,39,M,99,161,Treatment 1,VISIT 2,2,1.5,1.36,1.36,ANALYTE1,ANL1,460.425,,,Y,1,Y,1
STUDY123,STUDY123-101-19,19,101,39,M,99,161,Treatment 1,VISIT 2,2,2,2,2,ANALYTE1,ANL1,425.538,,,Y,1,Y,1
STUDY123,STUDY123-101-19,19,101,39,M,99,161,Treatment 1,VISIT 2,2,3,3,3,ANALYTE1,ANL1,426.755,,,Y,1,Y,1
STUDY123,STUDY123-101-19,19,101,39,M,99,161,Treatment 1,VISIT 2,2,5,5,5,ANALYTE1,ANL1,323.717,,,Y,1,Y,1
STUDY123,STUDY123-101-19,19,101,39,M,99,161,Treatment 1,VISIT 2,2,8,8,8,ANALYTE1,ANL1,375.642,,,Y,1,Y,1
STUDY123,STUDY123-101-19,19,101,39,M,99,161,Treatment 1,VISIT 2,2,12,12,12,ANALYTE1,ANL1,267.533,,,Y,1,Y,1
STUDY123,STUDY123-101-2,2,101,51,M,90,147,Treatment 2,VISIT 1,1,0,0,0,ANALYTE1,ANL1,,Y,BAD LUCK,,,,
STUDY123,STUDY123-101-2,2,101,51,M,90,147,Treatment 2,VISIT 1,1,0.5,0.5,0.5,ANALYTE1,ANL1,58.923,,,Y,1,Y,1
STUDY123,STUDY123-101-2,2,101,51,M,90,147,Treatment 2,VISIT 1,1,1,1,1,ANALYTE1,ANL1,215.581,,,Y,1,Y,1
STUDY123,STUDY123-101-2,2,101,51,M,90,147,Treatment 2,VISIT 1,1,1.5,1.5,1.5,ANALYTE1,ANL1,242.766,,,Y,1,Y,1
STUDY123,STUDY123-101-2,2,101,51,M,90,147,Treatment 2,VISIT 1,1,2,2,2,ANALYTE1,ANL1,222.39,,,Y,1,Y,1
STUDY123,STUDY123-101-2,2,101,51,M,90,147,Treatment 2,VISIT 1,1,3,3,3,ANALYTE1,ANL1,202.014,,,Y,1,Y,1
STUDY123,STUDY123-101-2,2,101,51,M,90,147,Treatment 2,VISIT 1,1,5,5,5,ANALYTE1,ANL1,201.625,,,Y,1,Y,1
STUDY123,STUDY123-101-2,2,101,51,M,90,147,Treatment 2,VISIT 1,1,8,7.45,7.45,ANALYTE1,ANL1,167.016,,,Y,1,Y,1
STUDY123,STUDY123-101-2,2,101,51,M,90,147,Treatment 2,VISIT 1,1,12,12,12,ANALYTE1,ANL1,115.359,,,Y,1,Y,1
STUDY123,STUDY123-101-2,2,101,51,M,90,147,Treatment 2,VISIT 2,2,0,0,0,ANALYTE1,ANL1,0,,,Y,1,Y,1
STUDY123,STUDY123-101-2,2,101,51,M,90,147,Treatment 2,VISIT 2,2,0.5,0.5,0.5,ANALYTE1,ANL1,42.489,,,Y,1,Y,1
STUDY123,STUDY123-101-2,2,101,51,M,90,147,Treatment 2,VISIT 2,2,1,1,1,ANALYTE1,ANL1,155.455,,,Y,1,Y,1
STUDY123,STUDY123-101-2,2,101,51,M,90,147,Treatment 2,VISIT 2,2,1.5,1.38,1.38,ANALYTE1,ANL1,175.058,,,Y,1,Y,1
STUDY123,STUDY123-101-2,2,101,51,M,90,147,Treatment 2,VISIT 2,2,2,2,2,ANALYTE1,ANL1,160.365,,,Y,1,Y,1
STUDY123,STUDY123-101-2,2,101,51,M,90,147,Treatment 2,VISIT 2,2,3,3,3,ANALYTE1,ANL1,145.672,,,Y,1,Y,1
STUDY123,STUDY123-101-2,2,101,51,M,90,147,Treatment 2,VISIT 2,2,5,5,5,ANALYTE1,ANL1,145.391,,,Y,1,Y,1
STUDY123,STUDY123-101-2,2,101,51,M,90,147,Treatment 2,VISIT 2,2,8,8,8,ANALYTE1,ANL1,120.434,,,Y,1,Y,1
STUDY123,STUDY123-101-2,2,101,51,M,90,147,Treatment 2,VISIT 2,2,12,12,12,ANALYTE1,ANL1,83.185,,,Y,1,Y,1
STUDY123,STUDY123-101-20,20,101,31,F,104,174,Treatment 2,VISIT 1,1,0,0,0,ANALYTE1,ANL1,0,,,Y,1,Y,1
STUDY123,STUDY123-101-20,20,101,31,F,104,174,Treatment 2,VISIT 1,1,0.5,0.5,0.5,ANALYTE1,ANL1,54.966,,,Y,1,Y,1
STUDY123,STUDY123-101-20,20,101,31,F,104,174,Treatment 2,VISIT 1,1,1,1,1,ANALYTE1,ANL1,201.103,,,Y,1,Y,1
STUDY123,STUDY123-101-20,20,101,31,F,104,174,Treatment 2,VISIT 1,1,1.5,1.36,1.36,ANALYTE1,ANL1,226.462,,,Y,1,Y,1
STUDY123,STUDY123-101-20,20,101,31,F,104,174,Treatment 2,VISIT 1,1,2,2,2,ANALYTE1,ANL1,207.455,,,Y,1,Y,1
STUDY123,STUDY123-101-20,20,101,31,F,104,174,Treatment 2,VISIT 1,1,3,3,3,ANALYTE1,ANL1,188.447,,,Y,1,Y,1
STUDY123,STUDY123-101-20,20,101,31,F,104,174,Treatment 2,VISIT 1,1,5,5,5,ANALYTE1,ANL1,188.084,,,Y,1,Y,1
STUDY123,STUDY123-101-20,20,101,31,F,104,174,Treatment 2,VISIT 1,1,8,8,8,ANALYTE1,ANL1,155.799,,,Y,1,Y,1
STUDY123,STUDY123-101-20,20,101,31,F,104,174,Treatment 2,VISIT 1,1,12,12,12,ANALYTE1,ANL1,107.612,,,Y,1,Y,1
STUDY123,STUDY123-101-20,20,101,31,F,104,174,Treatment 2,VISIT 2,2,0,0,0,ANALYTE1,ANL1,0,,,Y,1,Y,1
STUDY123,STUDY123-101-20,20,101,31,F,104,174,Treatment 2,VISIT 2,2,0.5,0.5,0.5,ANALYTE1,ANL1,47.569,,,Y,1,Y,1
STUDY123,STUDY123-101-20,20,101,31,F,104,174,Treatment 2,VISIT 2,2,1,1,1,ANALYTE1,ANL1,174.039,,,Y,1,Y,1
STUDY123,STUDY123-101-20,20,101,31,F,104,174,Treatment 2,VISIT 2,2,1.5,1.5,1.5,ANALYTE1,ANL1,195.985,,,Y,1,Y,1
STUDY123,STUDY123-101-20,20,101,31,F,104,174,Treatment 2,VISIT 2,2,2,2,2,ANALYTE1,ANL1,179.535,,,Y,1,Y,1
STUDY123,STUDY123-101-20,20,101,31,F,104,174,Treatment 2,VISIT 2,2,3,3,3,ANALYTE1,ANL1,163.086,,,Y,1,Y,1
STUDY123,STUDY123-101-20,20,101,31,F,104,174,Treatment 2,VISIT 2,2,5,5,5,ANALYTE1,ANL1,162.771,,,Y,1,Y,1
STUDY123,STUDY123-101-20,20,101,31,F,104,174,Treatment 2,VISIT 2,2,8,8,8,ANALYTE1,ANL1,134.832,,,Y,1,Y,1
STUDY123,STUDY123-101-20,20,101,31,F,104,174,Treatment 2,VISIT 2,2,12,12,12,ANALYTE1,ANL1,93.13,,,Y,1,Y,1
STUDY123,STUDY123-101-3,3,101,44,F,112,182,Treatment 1,VISIT 1,1,0,0,0,ANALYTE1,ANL1,0,,,Y,1,Y,1
STUDY123,STUDY123-101-3,3,101,44,F,112,182,Treatment 1,VISIT 1,1,0.5,0.5,0.5,ANALYTE1,ANL1,176.038,,,Y,1,Y,1
STUDY123,STUDY123-101-3,3,101,44,F,112,182,Treatment 1,VISIT 1,1,1,1,1,ANALYTE1,ANL1,361.546,,,Y,1,Y,1
STUDY123,STUDY123-101-3,3,101,44,F,112,182,Treatment 1,VISIT 1,1,1.5,1.5,1.5,ANALYTE1,ANL1,377.772,,,Y,1,Y,1
STUDY123,STUDY123-101-3,3,101,44,F,112,182,Treatment 1,VISIT 1,1,2,2,2,ANALYTE1,ANL1,349.148,,,Y,1,Y,1
STUDY123,STUDY123-101-3,3,101,44,F,112,182,Treatment 1,VISIT 1,1,3,3,3,ANALYTE1,ANL1,350.146,,,Y,1,Y,1
STUDY123,STUDY123-101-3,3,101,44,F,112,182,Treatment 1,VISIT 1,1,5,5,5,ANALYTE1,ANL1,265.605,,,Y,1,Y,1
STUDY123,STUDY123-101-3,3,101,44,F,112,182,Treatment 1,VISIT 1,1,8,8,8,ANALYTE1,ANL1,308.209,,,Y,1,Y,1
STUDY123,STUDY123-101-3,3,101,44,F,112,182,Treatment 1,VISIT 1,1,12,12,12,ANALYTE1,ANL1,219.507,,,Y,1,Y,1
STUDY123,STUDY123-101-3,3,101,44,F,112,182,Treatment 1,VISIT 2,2,0,0,0,ANALYTE1,ANL1,0,,,Y,1,Y,1
STUDY123,STUDY123-101-3,3,101,44,F,112,182,Treatment 1,VISIT 2,2,0.5,0.5,0.5,ANALYTE1,ANL1,133.714,,,Y,1,Y,1
STUDY123,STUDY123-101-3,3,101,44,F,112,182,Treatment 1,VISIT 2,2,1,1,1,ANALYTE1,ANL1,274.62,,,Y,1,Y,1
STUDY123,STUDY123-101-3,3,101,44,F,112,182,Treatment 1,VISIT 2,2,1.5,1.5,1.5,ANALYTE1,ANL1,286.944,,,Y,1,Y,1
STUDY123,STUDY123-101-3,3,101,44,F,112,182,Treatment 1,VISIT 2,2,2,2,2,ANALYTE1,ANL1,265.202,,,Y,1,Y,1
STUDY123,STUDY123-101-3,3,101,44,F,112,182,Treatment 1,VISIT 2,2,3,3,3,ANALYTE1,ANL1,265.961,,,Y,1,Y,1
STUDY123,STUDY123-101-3,3,101,44,F,112,182,Treatment 1,VISIT 2,2,5,5,5,ANALYTE1,ANL1,201.746,,,Y,1,Y,1
STUDY123,STUDY123-101-3,3,101,44,F,112,182,Treatment 1,VISIT 2,2,8,7.48,7.48,ANALYTE1,ANL1,234.106,,,Y,1,Y,1
STUDY123,STUDY123-101-3,3,101,44,F,112,182,Treatment 1,VISIT 2,2,12,12,12,ANALYTE1,ANL1,166.731,,,Y,1,Y,1
STUDY123,STUDY123-101-4,4,101,29,M,104,192,Treatment 2,VISIT 1,1,0,0,0,ANALYTE1,ANL1,0,,,Y,1,Y,1
STUDY123,STUDY123-101-4,4,101,29,M,104,192,Treatment 2,VISIT 1,1,0.5,0.45,0.45,ANALYTE1,ANL1,39.029,,,Y,1,Y,1
STUDY123,STUDY123-101-4,4,101,29,M,104,192,Treatment 2,VISIT 1,1,1,1,1,ANALYTE1,ANL1,142.796,,,Y,1,Y,1
STUDY123,STUDY123-101-4,4,101,29,M,104,192,Treatment 2,VISIT 1,1,1.5,1.5,1.5,ANALYTE1,ANL1,160.803,,,Y,1,Y,1
STUDY123,STUDY123-101-4,4,101,29,M,104,192,Treatment 2,VISIT 1,1,2,1.8,1.8,ANALYTE1,ANL1,147.306,,,Y,1,Y,1
STUDY123,STUDY123-101-4,4,101,29,M,104,192,Treatment 2,VISIT 1,1,3,3,3,ANALYTE1,ANL1,133.809,,,Y,1,Y,1
STUDY123,STUDY123-101-4,4,101,29,M,104,192,Treatment 2,VISIT 1,1,5,4.51,4.51,ANALYTE1,ANL1,133.552,,,Y,1,Y,1
STUDY123,STUDY123-101-4,4,101,29,M,104,192,Treatment 2,VISIT 1,1,8,8,8,ANALYTE1,ANL1,110.627,,,Y,1,Y,1
STUDY123,STUDY123-101-4,4,101,29,M,104,192,Treatment 2,VISIT 1,1,12,12,12,ANALYTE1,ANL1,76.411,,,Y,1,Y,1
STUDY123,STUDY123-101-4,4,101,29,M,104,192,Treatment 2,VISIT 2,2,0,0,0,ANALYTE1,ANL1,0,,,Y,1,Y,1
STUDY123,STUDY123-101-4,4,101,29,M,104,192,Treatment 2,VISIT 2,2,0.5,0.5,0.5,ANALYTE1,ANL1,29.646,,,Y,1,Y,1
STUDY123,STUDY123-101-4,4,101,29,M,104,192,Treatment 2,VISIT 2,2,1,1,1,ANALYTE1,ANL1,108.464,,,Y,1,Y,1
STUDY123,STUDY123-101-4,4,101,29,M,104,192,Treatment 2,VISIT 2,2,1.5,1.4,1.4,ANALYTE1,ANL1,,Y,BAD LUCK,,,,
STUDY123,STUDY123-101-4,4,101,29,M,104,192,Treatment 2,VISIT 2,2,2,2,2,ANALYTE1,ANL1,111.889,,,Y,1,Y,1
STUDY123,STUDY123-101-4,4,101,29,M,104,192,Treatment 2,VISIT 2,2,3,2.8,2.8,ANALYTE1,ANL1,101.638,,,Y,1,Y,1
STUDY123,STUDY123-101-4,4,101,29,M,104,192,Treatment 2,VISIT 2,2,5,5,5,ANALYTE1,ANL1,101.442,,,Y,1,Y,1
STUDY123,STUDY123-101-4,4,101,29,M,104,192,Treatment 2,VISIT 2,2,8,8,8,ANALYTE1,ANL1,84.029,,,Y,1,Y,1
STUDY123,STUDY123-101-4,4,101,29,M,104,192,Treatment 2,VISIT 2,2,12,12,12,ANALYTE1,ANL1,58.04,,,Y,1,Y,1
STUDY123,STUDY123-101-5,5,101,26,M,71,187,Treatment 1,VISIT 1,1,0,0,0,ANALYTE1,ANL1,0,,,Y,1,Y,1
STUDY123,STUDY123-101-5,5,101,26,M,71,187,Treatment 1,VISIT 1,1,0.5,0.46,0.46,ANALYTE1,ANL1,162.126,,,Y,1,Y,1
STUDY123,STUDY123-101-5,5,101,26,M,71,187,Treatment 1,VISIT 1,1,1,1,1,ANALYTE1,ANL1,332.974,,,Y,1,Y,1
STUDY123,STUDY123-101-5,5,101,26,M,71,187,Treatment 1,VISIT 1,1,1.5,1.5,1.5,ANALYTE1,ANL1,347.917,,,Y,1,Y,1
STUDY123,STUDY123-101-5,5,101,26,M,71,187,Treatment 1,VISIT 1,1,2,2,2,ANALYTE1,ANL1,,Y,BAD LUCK,,,,
STUDY123,STUDY123-101-5,5,101,26,M,71,187,Treatment 1,VISIT 1,1,3,3,3,ANALYTE1,ANL1,322.475,,,Y,1,Y,1
STUDY123,STUDY123-101-5,5,101,26,M,71,187,Treatment 1,VISIT 1,1,5,5,5,ANALYTE1,ANL1,244.615,,,Y,1,Y,1
STUDY123,STUDY123-101-5,5,101,26,M,71,187,Treatment 1,VISIT 1,1,8,8,8,ANALYTE1,ANL1,283.851,,,Y,1,Y,1
STUDY123,STUDY123-101-5,5,101,26,M,71,187,Treatment 1,VISIT 1,1,12,11.12,11.12,ANALYTE1,ANL1,,Y,BAD LUCK,,,,
STUDY123,STUDY123-101-5,5,101,26,M,71,187,Treatment 1,VISIT 2,2,0,0,0,ANALYTE1,ANL1,0,,,Y,1,Y,1
STUDY123,STUDY123-101-5,5,101,26,M,71,187,Treatment 1,VISIT 2,2,0.5,0.5,0.5,ANALYTE1,ANL1,133.158,,,Y,1,Y,1
STUDY123,STUDY123-101-5,5,101,26,M,71,187,Treatment 1,VISIT 2,2,1,1,1,ANALYTE1,ANL1,273.479,,,Y,1,Y,1
STUDY123,STUDY123-101-5,5,101,26,M,71,187,Treatment 1,VISIT 2,2,1.5,1.5,1.5,ANALYTE1,ANL1,285.752,,,Y,1,Y,1
STUDY123,STUDY123-101-5,5,101,26,M,71,187,Treatment 1,VISIT 2,2,2,2,2,ANALYTE1,ANL1,264.101,,,Y,1,Y,1
STUDY123,STUDY123-101-5,5,101,26,M,71,187,Treatment 1,VISIT 2,2,3,3,3,ANALYTE1,ANL1,264.856,,,Y,1,Y,1
STUDY123,STUDY123-101-5,5,101,26,M,71,187,Treatment 1,VISIT 2,2,5,4.59,4.59,ANALYTE1,ANL1,200.908,,,Y,1,Y,1
STUDY123,STUDY123-101-5,5,101,26,M,71,187,Treatment 1,VISIT 2,2,8,7.35,7.35,ANALYTE1,ANL1,233.134,,,Y,1,Y,1
STUDY123,STUDY123-101-5,5,101,26,M,71,187,Treatment 1,VISIT 2,2,12,12,12,ANALYTE1,ANL1,166.038,,,Y,1,Y,1
STUDY123,STUDY123-101-6,6,101,28,F,104,141,Treatment 2,VISIT 1,1,0,0,0,ANALYTE1,ANL1,0,,,Y,1,Y,1
STUDY123,STUDY123-101-6,6,101,28,F,104,141,Treatment 2,VISIT 1,1,0.5,0.5,0.5,ANALYTE1,ANL1,35.945,,,Y,1,Y,1
STUDY123,STUDY123-101-6,6,101,28,F,104,141,Treatment 2,VISIT 1,1,1,1,1,ANALYTE1,ANL1,131.511,,,Y,1,Y,1
STUDY123,STUDY123-101-6,6,101,28,F,104,141,Treatment 2,VISIT 1,1,1.5,1.5,1.5,ANALYTE1,ANL1,148.095,,,Y,1,Y,1
STUDY123,STUDY123-101-6,6,101,28,F,104,141,Treatment 2,VISIT 1,1,2,2,2,ANALYTE1,ANL1,135.665,,,Y,1,Y,1
STUDY123,STUDY123-101-6,6,101,28,F,104,141,Treatment 2,VISIT 1,1,3,3,3,ANALYTE1,ANL1,123.235,,,Y,1,Y,1
STUDY123,STUDY123-101-6,6,101,28,F,104,141,Treatment 2,VISIT 1,1,5,5,5,ANALYTE1,ANL1,122.997,,,Y,1,Y,1
STUDY123,STUDY123-101-6,6,101,28,F,104,141,Treatment 2,VISIT 1,1,8,8,8,ANALYTE1,ANL1,101.885,,,Y,1,Y,1
STUDY123,STUDY123-101-6,6,101,28,F,104,141,Treatment 2,VISIT 1,1,12,12,12,ANALYTE1,ANL1,70.373,,,Y,1,Y,1
STUDY123,STUDY123-101-6,6,101,28,F,104,141,Treatment 2,VISIT 2,2,0,0,0,ANALYTE1,ANL1,0,,,Y,1,Y,1
STUDY123,STUDY123-101-6,6,101,28,F,104,141,Treatment 2,VISIT 2,2,0.5,0.5,0.5,ANALYTE1,ANL1,29.522,,,Y,1,Y,1
STUDY123,STUDY123-101-6,6,101,28,F,104,141,Treatment 2,VISIT 2,2,1,1,1,ANALYTE1,ANL1,108.013,,,Y,1,Y,1
STUDY123,STUDY123-101-6,6,101,28,F,104,141,Treatment 2,VISIT 2,2,1.5,1.38,1.38,ANALYTE1,ANL1,121.634,,,Y,1,Y,1
STUDY123,STUDY123-101-6,6,101,28,F,104,141,Treatment 2,VISIT 2,2,2,1.84,1.84,ANALYTE1,ANL1,111.425,,,Y,1,Y,1
STUDY123,STUDY123-101-6,6,101,28,F,104,141,Treatment 2,VISIT 2,2,3,3,3,ANALYTE1,ANL1,101.215,,,Y,1,Y,1
STUDY123,STUDY123-101-6,6,101,28,F,104,141,Treatment 2,VISIT 2,2,5,5,5,ANALYTE1,ANL1,101.02,,,Y,1,Y,1
STUDY123,STUDY123-101-6,6,101,28,F,104,141,Treatment 2,VISIT 2,2,8,8,8,ANALYTE1,ANL1,83.68,,,Y,1,Y,1
STUDY123,STUDY123-101-6,6,101,28,F,104,141,Treatment 2,VISIT 2,2,12,11.03,11.03,ANALYTE1,ANL1,57.799,,,Y,1,Y,1
STUDY123,STUDY123-101-7,7,101,71,M,109,157,Treatment 1,VISIT 1,1,0,0,0,ANALYTE1,ANL1,0,,,Y,1,Y,1
STUDY123,STUDY123-101-7,7,101,71,M,109,157,Treatment 1,VISIT 1,1,0.5,0.5,0.5,ANALYTE1,ANL1,310.63,,,Y,1,Y,1
STUDY123,STUDY123-101-7,7,101,71,M,109,157,Treatment 1,VISIT 1,1,1,1,1,ANALYTE1,ANL1,637.969,,,Y,1,Y,1
STUDY123,STUDY123-101-7,7,101,71,M,109,157,Treatment 1,VISIT 1,1,1.5,1.5,1.5,ANALYTE1,ANL1,666.601,,,Y,1,Y,1
STUDY123,STUDY123-101-7,7,101,71,M,109,157,Treatment 1,VISIT 1,1,2,2,2,ANALYTE1,ANL1,616.092,,,Y,1,Y,1
STUDY123,STUDY123-101-7,7,101,71,M,109,157,Treatment 1,VISIT 1,1,3,3,3,ANALYTE1,ANL1,617.854,,,Y,1,Y,1
STUDY123,STUDY123-101-7,7,101,71,M,109,157,Treatment 1,VISIT 1,1,5,5,5,ANALYTE1,ANL1,468.676,,,Y,1,Y,1
STUDY123,STUDY123-101-7,7,101,71,M,109,157,Treatment 1,VISIT 1,1,8,8,8,ANALYTE1,ANL1,543.852,,,Y,1,Y,1
STUDY123,STUDY123-101-7,7,101,71,M,109,157,Treatment 1,VISIT 1,1,12,12,12,ANALYTE1,ANL1,387.333,,,Y,1,Y,1
STUDY123,STUDY123-101-7,7,101,71,M,109,157,Treatment 1,VISIT 2,2,0,0,0,ANALYTE1,ANL1,0,,,Y,1,Y,1
STUDY123,STUDY123-101-7,7,101,71,M,109,157,Treatment 1,VISIT 2,2,0.5,0.5,0.5,ANALYTE1,ANL1,156.917,,,Y,1,Y,1
STUDY123,STUDY123-101-7,7,101,71,M,109,157,Treatment 1,VISIT 2,2,1,1,1,ANALYTE1,ANL1,322.274,,,Y,1,Y,1
STUDY123,STUDY123-101-7,7,101,71,M,109,157,Treatment 1,VISIT 2,2,1.5,1.5,1.5,ANALYTE1,ANL1,336.737,,,Y,1,Y,1
STUDY123,STUDY123-101-7,7,101,71,M,109,157,Treatment 1,VISIT 2,2,2,2,2,ANALYTE1,ANL1,311.222,,,Y,1,Y,1
STUDY123,STUDY123-101-7,7,101,71,M,109,157,Treatment 1,VISIT 2,2,3,3,3,ANALYTE1,ANL1,312.112,,,Y,1,Y,1
STUDY123,STUDY123-101-7,7,101,71,M,109,157,Treatment 1,VISIT 2,2,5,5,5,ANALYTE1,ANL1,236.754,,,Y,1,Y,1
STUDY123,STUDY123-101-7,7,101,71,M,109,157,Treatment 1,VISIT 2,2,8,8,8,ANALYTE1,ANL1,274.73,,,Y,1,Y,1
STUDY123,STUDY123-101-7,7,101,71,M,109,157,Treatment 1,VISIT 2,2,12,12,12,ANALYTE1,ANL1,195.664,,,Y,1,Y,1
STUDY123,STUDY123-101-8,8,101,26,M,110,188,Treatment 2,VISIT 1,1,0,0,0,ANALYTE1,ANL1,0,,,Y,1,Y,1
STUDY123,STUDY123-101-8,8,101,26,M,110,188,Treatment 2,VISIT 1,1,0.5,0.5,0.5,ANALYTE1,ANL1,68.87,,,Y,1,Y,1
STUDY123,STUDY123-101-8,8,101,26,M,110,188,Treatment 2,VISIT 1,1,1,1,1,ANALYTE1,ANL1,251.972,,,Y,1,Y,1
STUDY123,STUDY123-101-8,8,101,26,M,110,188,Treatment 2,VISIT 1,1,1.5,1.42,1.42,ANALYTE1,ANL1,283.746,,,Y,1,Y,1
STUDY123,STUDY123-101-8,8,101,26,M,110,188,Treatment 2,VISIT 1,1,2,2,2,ANALYTE1,ANL1,259.93,,,Y,1,Y,1
STUDY123,STUDY123-101-8,8,101,26,M,110,188,Treatment 2,VISIT 1,1,3,3,3,ANALYTE1,ANL1,236.115,,,Y,1,Y,1
STUDY123,STUDY123-101-8,8,101,26,M,110,188,Treatment 2,VISIT 1,1,5,5,5,ANALYTE1,ANL1,235.659,,,Y,1,Y,1
STUDY123,STUDY123-101-8,8,101,26,M,110,188,Treatment 2,VISIT 1,1,8,8,8,ANALYTE1,ANL1,195.208,,,Y,1,Y,1
STUDY123,STUDY123-101-8,8,101,26,M,110,188,Treatment 2,VISIT 1,1,12,11.4,11.4,ANALYTE1,ANL1,134.832,,,Y,1,Y,1
STUDY123,STUDY123-101-8,8,101,26,M,110,188,Treatment 2,VISIT 2,2,0,0,0,ANALYTE1,ANL1,0,,,Y,1,Y,1
STUDY123,STUDY123-101-8,8,101,26,M,110,188,Treatment 2,VISIT 2,2,0.5,0.47,0.47,ANALYTE1,ANL1,34.79,,,Y,1,Y,1
STUDY123,STUDY123-101-8,8,101,26,M,110,188,Treatment 2,VISIT 2,2,1,1,1,ANALYTE1,ANL1,,Y,BAD LUCK,,,,
STUDY123,STUDY123-101-8,8,101,26,M,110,188,Treatment 2,VISIT 2,2,1.5,1.5,1.5,ANALYTE1,ANL1,143.336,,,Y,1,Y,1
STUDY123,STUDY123-101-8,8,101,26,M,110,188,Treatment 2,VISIT 2,2,2,2,2,ANALYTE1,ANL1,131.305,,,Y,1,Y,1
STUDY123,STUDY123-101-8,8,101,26,M,110,188,Treatment 2,VISIT 2,2,3,3,3,ANALYTE1,ANL1,119.275,,,Y,1,Y,1
STUDY123,STUDY123-101-8,8,101,26,M,110,188,Treatment 2,VISIT 2,2,5,5,5,ANALYTE1,ANL1,119.045,,,Y,1,Y,1
STUDY123,STUDY123-101-8,8,101,26,M,110,188,Treatment 2,VISIT 2,2,8,8,8,ANALYTE1,ANL1,98.611,,,Y,1,Y,1
STUDY123,STUDY123-101-8,8,101,26,M,110,188,Treatment 2,VISIT 2,2,12,12,12,ANALYTE1,ANL1,68.111,,,Y,1,Y,1
STUDY123,STUDY123-101-9,9,101,54,F,112,162,Treatment 1,VISIT 1,1,0,0,0,ANALYTE1,ANL1,0,,,Y,1,Y,1
STUDY123,STUDY123-101-9,9,101,54,F,112,162,Treatment 1,VISIT 1,1,0.5,0.5,0.5,ANALYTE1,ANL1,215.068,,,Y,1,Y,1
STUDY123,STUDY123-101-9,9,101,54,F,112,162,Treatment 1,VISIT 1,1,1,1,1,ANALYTE1,ANL1,441.704,,,Y,1,Y,1
STUDY123,STUDY123-101-9,9,101,54,F,112,162,Treatment 1,VISIT 1,1,1.5,1.38,1.38,ANALYTE1,ANL1,461.528,,,Y,1,Y,1
STUDY123,STUDY123-101-9,9,101,54,F,112,162,Treatment 1,VISIT 1,1,2,2,2,ANALYTE1,ANL1,426.557,,,Y,1,Y,1
STUDY123,STUDY123-101-9,9,101,54,F,112,162,Treatment 1,VISIT 1,1,3,3,3,ANALYTE1,ANL1,427.777,,,Y,1,Y,1
STUDY123,STUDY123-101-9,9,101,54,F,112,162,Treatment 1,VISIT 1,1,5,5,5,ANALYTE1,ANL1,324.493,,,Y,1,Y,1
STUDY123,STUDY123-101-9,9,101,54,F,112,162,Treatment 1,VISIT 1,1,8,8,8,ANALYTE1,ANL1,,Y,BAD LUCK,,,,
STUDY123,STUDY123-101-9,9,101,54,F,112,162,Treatment 1,VISIT 1,1,12,12,12,ANALYTE1,ANL1,268.174,,,Y,1,Y,1
STUDY123,STUDY123-101-9,9,101,54,F,112,162,Treatment 1,VISIT 2,2,0,0,0,ANALYTE1,ANL1,0,,,Y,1,Y,1
STUDY123,STUDY123-101-9,9,101,54,F,112,162,Treatment 1,VISIT 2,2,0.5,0.5,0.5,ANALYTE1,ANL1,249.804,,,Y,1,Y,1
STUDY123,STUDY123-101-9,9,101,54,F,112,162,Treatment 1,VISIT 2,2,1,0.9,0.9,ANALYTE1,ANL1,513.044,,,Y,1,Y,1
STUDY123,STUDY123-101-9,9,101,54,F,112,162,Treatment 1,VISIT 2,2,1.5,1.5,1.5,ANALYTE1,ANL1,536.069,,,Y,1,Y,1
STUDY123,STUDY123-101-9,9,101,54,F,112,162,Treatment 1,VISIT 2,2,2,2,2,ANALYTE1,ANL1,495.451,,,Y,1,Y,1
STUDY123,STUDY123-101-9,9,101,54,F,112,162,Treatment 1,VISIT 2,2,3,2.71,2.71,ANALYTE1,ANL1,,Y,BAD LUCK,,,,
STUDY123,STUDY123-101-9,9,101,54,F,112,162,Treatment 1,VISIT 2,2,5,4.52,4.52,ANALYTE1,ANL1,376.902,,,Y,1,Y,1
STUDY123,STUDY123-101-9,9,101,54,F,112,162,Treatment 1,VISIT 2,2,8,8,8,ANALYTE1,ANL1,437.357,,,Y,1,Y,1
STUDY123,STUDY123-101-9,9,101,54,F,112,162,Treatment 1,VISIT 2,2,12,10.84,10.84,ANALYTE1,ANL1,311.487,,,Y,1,Y,1
